File: 2018-04-05_tutorial/examples/BN_(hex)_LowLoss_Giovanni_Bertoni_96.msa
#FORMAT      : EMSA/MAS Spectral Data File
#VERSION     : 1.0
#DATE        :
#TIME        :
#OWNER       :
#NPOINTS     : 1024
#NCOLUMNS    : 1
#DATATYPE    : Y
#SIGNALTYPE  : EELS
#XPERCHAN    : 0.5
#OFFSET      : -61.49999
#XLABEL      :
#XUNITS      : eV
#COMMENT     : File created by HyperSpy version 1.4.dev
#TITLE       : Hexagonal Boron Nitride
#BEAMKV      : 300.0
#CONVANGLE   : 0.2
#COLLANGLE   : 2.55
#SPECTRUM    : Spectral Data Starts Here
-27.8947,
2.105263,
-32.4561,
-12.807,
-31.7544,
3.157895,
26.3158,
-25.4386,
4.035088,
-34.2105,
-1.929825,
-21.5789,
-11.0526,
-8.070175,
-28.5965,
22.9825,
30,
0.701754,
11.7544,
-2.631579,
2.631579,
39.4737,
-1.929825,
-33.1579,
1.052632,
7.543860,
14.2105,
3.333333,
11.4035,
-2.982456,
-0.175439,
-9.122807,
-2.982456,
-26.3158,
-16.4912,
5.263158,
5.789474,
-5.614035,
14.0351,
-23.3333,
-16.3158,
-2.807018,
-6.842105,
0.000000,
-1.754386,
-13.8597,
8.947368,
31.2281,
46.3158,
-1.403509,
3.508772,
-2.982456,
39.2983,
23.3333,
-17.7193,
-28.5965,
-16.6667,
-11.9298,
-10.3509,
-30.7018,
-4.210526,
16.4912,
-22.9825,
-20,
-11.4035,
43.5088,
21.2281,
-0.175439,
4.385965,
-16.6667,
29.2982,
33.1579,
-11.579,
12.2807,
8.421053,
-43.8597,
-9.649123,
18.2456,
8.596491,
-24.7368,
-13.6842,
28.9474,
32.9825,
19.6491,
3.684211,
27.8947,
4.736842,
25.614,
11.9298,
0.526316,
36.3158,
29.1228,
-1.228070,
-24.2105,
27.3684,
50.8772,
40.3509,
31.5789,
23.8596,
25.2632,
46.8421,
45.4386,
16.3158,
70,
17.0175,
72.1053,
83.1579,
114.21,
143.509,
133.86,
199.298,
210.351,
263.509,
352.632,
601.579,
1182.46,
2545.09,
5392.81,
10961.2,
20348.8,
36136.5,
67265.3,
136553,
212898,
181442,
97521.1,
50350.9,
28834.4,
17106.3,
10136.1,
6317.02,
4590.88,
3935.09,
3785.79,
3889.3,
4246.84,
4762.28,
5469.82,
6274.39,
7006.67,
7099.65,
6534.74,
5679.3,
4816.32,
4097.72,
3531.23,
3176.84,
2871.4,
2780.88,
2880.7,
3007.89,
3130,
3366.49,
3708.25,
4047.19,
4497.54,
5065.44,
5771.93,
6547.72,
7351.05,
8193.51,
8872.1,
9648.07,
10434.4,
11272.5,
12209,
13394.9,
14667.4,
15997.2,
17409,
18877.4,
20154.2,
21116.7,
21814,
22202.1,
22234.7,
21878.4,
20999.7,
19995.4,
18683.5,
17541.6,
16385.6,
15331.2,
14297.5,
13165.8,
12140.4,
11214.7,
10552.1,
9970.18,
9466.32,
8984.39,
8708.07,
8445.26,
8258.07,
8020.88,
7760.53,
7620.35,
7623.86,
7409.47,
7192.63,
7048.07,
6940.35,
6524.91,
6324.39,
5998.95,
5715.09,
5514.03,
5428.07,
5286.14,
5222.98,
5274.91,
5242.46,
5278.42,
5361.4,
5519.65,
5555.79,
5657.37,
5754.91,
5834.39,
5906.14,
5949.82,
5995.44,
6033.51,
6064.39,
6059.82,
6111.23,
6114.39,
5963.16,
5884.91,
5774.74,
5716.49,
5674.03,
5556.32,
5469.82,
5378.95,
5199.47,
5028.42,
4852.81,
4749.3,
4586.67,
4458.25,
4340.7,
4267.72,
4222.81,
4034.91,
3915.97,
3919.3,
3734.21,
3693.16,
3590.35,
3522.98,
3524.74,
3390.53,
3336.84,
3302.81,
3154.74,
3100.35,
2952.98,
2894.39,
2821.23,
2777.54,
2689.3,
2640.53,
2618.25,
2524.39,
2532.28,
2542.98,
2441.93,
2461.58,
2464.03,
2379.47,
2293.33,
2254.39,
2262.46,
2253.16,
2174.39,
2130.53,
2105.79,
2125.61,
2116.67,
2060,
1918.77,
1872.63,
1890,
1898.6,
1855.44,
1826.49,
1793.16,
1734.39,
1720.53,
1646.49,
1606.14,
1608.6,
1565.44,
1539.12,
1515.61,
1568.77,
1557.37,
1511.93,
1422.28,
1361.05,
1396.14,
1313.68,
1334.04,
1256.49,
1222.63,
1241.05,
1232.98,
1196.32,
1190.88,
1151.4,
1102.81,
1111.75,
1138.25,
1052.98,
1058.6,
1109.65,
1032.28,
929.298,
925.789,
928.07,
886.316,
896.316,
905.614,
885.965,
855.263,
827.368,
785.614,
789.649,
818.947,
782.105,
757.368,
786.842,
771.579,
767.719,
730.877,
719.825,
709.825,
655.789,
678.421,
672.632,
644.035,
601.754,
642.105,
633.333,
634.561,
600.702,
564.737,
584.737,
565.614,
553.684,
545.263,
541.228,
496.14,
508.246,
504.035,
501.754,
473.333,
492.456,
462.807,
456.842,
466.14,
438.772,
429.474,
431.228,
443.86,
425.439,
401.053,
376.842,
378.421,
365.789,
338.947,
392.983,
395.088,
370.877,
368.772,
369.649,
334.561,
337.193,
298.596,
336.14,
329.123,
330.702,
306.667,
293.333,
313.86,
287.017,
330.175,
277.719,
304.035,
301.404,
274.211,
264.035,
246.842,
220.526,
229.649,
257.193,
178.947,
223.333,
242.105,
273.333,
249.649,
230.702,
216.491,
161.228,
213.158,
203.333,
153.684,
158.07,
215.965,
186.842,
174.737,
199.825,
201.93,
217.895,
181.754,
164.561,
165.965,
186.842,
165.439,
162.982,
184.386,
207.368,
167.368,
159.123,
163.684,
157.544,
162.456,
141.754,
146.842,
127.544,
134.386,
100.702,
138.246,
107.017,
153.158,
154.737,
143.86,
109.123,
106.842,
87.5439,
147.368,
140,
134.561,
114.035,
95.7895,
136.14,
146.316,
144.21,
96.3158,
92.2807,
97.3684,
104.21,
81.9298,
110.526,
145.088,
146.14,
98.5965,
95.614,
80.5263,
88.421,
122.983,
108.07,
101.228,
84.0351,
102.807,
82.2807,
101.579,
106.842,
86.4912,
57.3684,
59.1228,
107.017,
62.807,
65.614,
85.7895,
73.3333,
76.4912,
102.807,
68.2456,
92.2807,
31.7544,
81.7544,
69.8246,
94.9123,
62.6316,
50.7017,
94.9123,
91.2281,
49.6491,
85.9649,
83.5088,
70,
48.4211,
37.3684,
71.579,
60.8772,
50.7017,
84.2105,
60.1754,
51.5789,
39.8246,
50.8772,
78.421,
117.193,
143.684,
99.1228,
66.3158,
55.9649,
64.2105,
28.4211,
88.7719,
96.1403,
60.8772,
66.8421,
80.5263,
120,
151.754,
149.474,
135.79,
145.79,
144.386,
158.947,
129.123,
153.158,
127.017,
100.175,
97.8947,
123.158,
89.1228,
132.105,
115.263,
142.281,
137.544,
97.193,
134.035,
74.0351,
73.6842,
100.175,
102.983,
101.93,
80.7018,
82.9825,
60.3509,
106.316,
103.333,
74.9123,
106.14,
94.9123,
72.9825,
103.158,
63.1579,
77.7193,
94.7368,
87.0175,
78.5965,
117.368,
107.719,
99.2982,
68.5965,
55.0877,
94.0351,
92.9825,
72.6316,
95.0877,
92.2807,
56.6667,
74.386,
76.1403,
87.8947,
77.193,
87.7193,
88.9474,
88.0702,
114.21,
61.7544,
83.6842,
121.754,
130,
77.7193,
67.5439,
101.228,
50.8772,
83.1579,
90.7018,
100.351,
50.3509,
84.386,
74.0351,
114.386,
101.403,
77.0175,
90,
91.0526,
103.509,
67.193,
80.7018,
74.2105,
76.4912,
82.4561,
55.0877,
78.9474,
78.9474,
110.702,
110,
72.9825,
54.386,
70.7018,
82.9825,
76.4912,
78.9474,
64.0351,
40.5263,
77.0175,
65.0877,
81.0526,
52.6316,
85.2632,
102.807,
75.0877,
87.0175,
78.2456,
43.3333,
88.0702,
64.2105,
26.1404,
72.4561,
57.5439,
85.2632,
62.1053,
62.9825,
100.877,
39.1228,
61.0526,
63.8597,
71.0526,
73.3333,
42.807,
57.0175,
35.7895,
54.386,
65.0877,
77.0175,
60,
70,
57.5439,
54.0351,
59.1228,
74.386,
49.1228,
64.9123,
60.7017,
49.2983,
53.3333,
101.754,
107.017,
58.2456,
49.6491,
72.1053,
50.1754,
75.2632,
59.2983,
41.0526,
11.2281,
44.5614,
70.5263,
14.0351,
50.7017,
22.2807,
17.3684,
81.0526,
32.2807,
87.3684,
54.386,
69.4737,
59.4737,
21.5789,
34.0351,
41.2281,
38.0702,
35.4386,
38.5965,
58.0702,
12.2807,
16.4912,
32.1053,
36.8421,
46.1403,
33.1579,
31.5789,
90.3509,
72.4561,
65.9649,
22.4561,
48.0702,
41.9298,
46.3158,
34.386,
48.2456,
52.4561,
55.2632,
68.2456,
44.2105,
18.2456,
21.9298,
48.0702,
45.4386,
52.1053,
41.7544,
21.7544,
42.2807,
-5.789474,
15.2632,
36.8421,
31.4035,
9.649123,
39.2983,
48.0702,
37.8947,
57.0175,
88.421,
20.3509,
49.8246,
47.5439,
54.2105,
40.5263,
34.5614,
-5.087719,
-14.7368,
67.5439,
35.9649,
43.6842,
22.6316,
43.8597,
46.3158,
-4.035088,
23.5088,
34.5614,
50.7017,
41.7544,
41.0526,
50.7017,
61.5789,
69.6491,
48.9474,
-0.526316,
62.9825,
32.4561,
37.5439,
32.2807,
26.6667,
15.0877,
18.2456,
-6.842105,
43.8597,
74.0351,
20,
35.9649,
0.000000,
61.0526,
34.5614,
18.9474,
33.5088,
25.7895,
-1.403509,
29.8246,
-9.473684,
48.9474,
21.5789,
-18.7719,
60.8772,
22.4561,
7.192983,
28.5965,
-8.771930,
10.1754,
20.3509,
-9.824561,
14.2105,
12.1053,
46.1403,
36.8421,
57.5439,
34.2105,
-11.9298,
8.596491,
18.7719,
-20.1754,
-13.8597,
1.228070,
27.193,
30.7018,
7.368421,
47.7193,
7.719298,
4.561404,
16.8421,
10.5263,
31.7544,
1.403509,
11.7544,
0.701754,
20.8772,
33.5088,
11.579,
25.2632,
53.3333,
60.8772,
-30.5263,
41.4035,
21.9298,
24.2105,
41.5789,
-6.666667,
45.9649,
7.894737,
7.017544,
-5.087719,
0.000000,
43.8597,
-13.1579,
23.1579,
34.9123,
10.1754,
20.1754,
2.456140,
11.0526,
16.1404,
17.193,
43.5088,
13.8597,
-17.3684,
8.596491,
-0.877193,
20.5263,
40.5263,
7.017544,
33.5088,
1.052632,
8.771930,
34.9123,
-6.491228,
38.4211,
50.8772,
18.2456,
27.193,
-9.824561,
-9.824561,
13.1579,
9.649123,
25.0877,
31.0526,
33.3333,
-6.666667,
4.912281,
26.6667,
27.7193,
-13.6842,
28.7719,
40,
11.2281,
4.736842,
70.5263,
-23.3333,
70,
30.5263,
22.807,
-8.421053,
8.596491,
32.4561,
2.631579,
-11.0526,
51.4035,
24.386,
48.4211,
5.438597,
9.824561,
-25.4386,
-22.807,
7.719298,
9.298246,
30.7018,
41.7544,
42.9825,
30.3509,
13.8597,
18.0702,
23.8596,
24.5614,
18.9474,
-5.614035,
23.6842,
5.614035,
11.2281,
4.561404,
31.2281,
15.2632,
-6.315790,
5.438597,
8.245614,
16.1404,
25.7895,
15.0877,
7.192983,
42.4561,
23.5088,
-12.1053,
15.614,
-4.736842,
-1.929825,
-32.4561,
-5.263158,
32.807,
-1.228070,
-32.1053,
38.5965,
15.7895,
-3.859649,
-15.4386,
12.1053,
38.7719,
9.298246,
1.578947,
28.9474,
-1.228070,
23.5088,
-3.508772,
40.3509,
-11.9298,
24.386,
-3.333333,
10,
22.4561,
18.2456,
12.6316,
24.9123,
20.1754,
38.9474,
44.7368,
-5.263158,
36.8421,
43.8597,
12.4561,
-2.105263,
14.2105,
8.070175,
35.7895,
31.0526,
47.5439,
-6.842105,
26.4912,
38.4211,
59.2983,
34.5614,
29.4737,
11.0526,
48.9474,
28.7719,
28.2456,
43.5088,
46.8421,
20.5263,
59.6491,
38.0702,
3.508772,
23.3333,
5.087719,
20.3509,
30.5263,
-18.0702,
2.807018,
25.7895,
17.3684,
14.2105,
42.807,
-0.175439,
-4.210526,
11.9298,
-0.526316,
50.3509,
38.7719,
60.5263,
6.842105,
24.5614,
25.614,
-2.456140,
36.1403,
26.3158,
-2.807018,
47.8947,
-1.929825,
17.3684,
-0.350877,
16.6667,
14.7368,
14.386,
6.140351,
7.543860,
18.9474,
28.9474,
36.3158,
26.4912,
65.9649,
8.421053,
17.5439,
15.2632,
49.6491,
4.736842,
5.964912,
16.4912,
23.3333,
45.0877,
-7.543860,
57.3684,
21.5789,
44.2105,
6.140351,
50.5263,
28.4211,
2.807018,
38.0702,
35.0877,
8.947368,
45.0877,
#ENDOFDATA   : End Of Data and File