File: 2018-04-05_tutorial/examples/BN_(hex)_B_K_Giovanni_Bertoni_100.msa
#FORMAT      : EMSA/MAS Spectral Data File
#VERSION     : 1.0
#DATE        :
#TIME        :
#OWNER       :
#NPOINTS     : 1024
#NCOLUMNS    : 1
#DATATYPE    : Y
#SIGNALTYPE  : EELS
#XPERCHAN    : 0.5
#OFFSET      : 113.5
#XLABEL      :
#XUNITS      : eV
#COMMENT     : File created by HyperSpy version 1.4.dev
#TITLE       : Hexagonal Boron Nitride
#BEAMKV      : 100
#CONVANGLE   : 0.2
#COLLANGLE   : 2.55
#SPECTRUM    : Spectral Data Starts Here
2.09777e+07,
3.08123e+07,
3.02994e+07,
2.9798e+07,
2.92674e+07,
2.87372e+07,
2.82091e+07,
2.77179e+07,
2.72224e+07,
2.67289e+07,
2.6245e+07,
2.57954e+07,
2.53214e+07,
2.48675e+07,
2.4412e+07,
2.39769e+07,
2.35608e+07,
2.31554e+07,
2.27276e+07,
2.232e+07,
2.19268e+07,
2.15312e+07,
2.11585e+07,
2.07691e+07,
2.03917e+07,
2.00306e+07,
1.96668e+07,
1.93328e+07,
1.89929e+07,
1.86525e+07,
1.83361e+07,
1.80423e+07,
1.77194e+07,
1.73799e+07,
1.70718e+07,
1.67954e+07,
1.64965e+07,
1.61962e+07,
1.58871e+07,
1.56066e+07,
1.53551e+07,
1.51123e+07,
1.48514e+07,
1.45986e+07,
1.43543e+07,
1.41165e+07,
1.38572e+07,
1.36126e+07,
1.33758e+07,
1.31494e+07,
1.29301e+07,
1.27135e+07,
1.25075e+07,
1.22827e+07,
1.2077e+07,
1.18717e+07,
1.16706e+07,
1.14816e+07,
1.13056e+07,
1.11308e+07,
1.09473e+07,
1.07541e+07,
1.0574e+07,
1.04028e+07,
1.02372e+07,
1.00757e+07,
9.91615e+06,
9.75506e+06,
9.59463e+06,
9.438e+06,
9.28907e+06,
9.14586e+06,
8.99168e+06,
8.84701e+06,
8.71912e+06,
8.57311e+06,
8.43274e+06,
8.3086e+06,
8.18196e+06,
8.05616e+06,
7.926e+06,
7.80652e+06,
7.68055e+06,
7.56849e+06,
7.45502e+06,
7.33614e+06,
7.22365e+06,
7.10054e+06,
6.99305e+06,
6.89032e+06,
6.78082e+06,
6.67558e+06,
6.57308e+06,
6.47631e+06,
6.39124e+06,
6.29915e+06,
6.20537e+06,
6.10877e+06,
6.01418e+06,
5.92242e+06,
5.83502e+06,
5.75139e+06,
5.6648e+06,
5.58159e+06,
5.49897e+06,
5.41994e+06,
5.34338e+06,
5.26162e+06,
5.19275e+06,
5.11358e+06,
5.03592e+06,
4.95867e+06,
4.88712e+06,
4.82093e+06,
4.75145e+06,
4.67987e+06,
4.61366e+06,
4.55278e+06,
4.48731e+06,
4.43282e+06,
4.36646e+06,
4.30657e+06,
4.24726e+06,
4.19092e+06,
4.13778e+06,
4.07452e+06,
4.01172e+06,
3.96205e+06,
3.90496e+06,
3.85434e+06,
3.80743e+06,
3.75421e+06,
3.70149e+06,
3.65483e+06,
3.61127e+06,
3.55665e+06,
3.50417e+06,
3.45867e+06,
3.41697e+06,
3.37812e+06,
3.33376e+06,
3.29033e+06,
3.24643e+06,
3.2063e+06,
3.16571e+06,
3.12565e+06,
3.09055e+06,
3.05088e+06,
3.00774e+06,
2.96846e+06,
2.92808e+06,
2.89149e+06,
2.85493e+06,
2.81889e+06,
2.78852e+06,
2.77286e+06,
2.76811e+06,
2.79426e+06,
2.86003e+06,
2.99309e+06,
3.26746e+06,
3.86163e+06,
4.64456e+06,
4.73131e+06,
4.02349e+06,
3.38934e+06,
3.07617e+06,
2.93781e+06,
2.88664e+06,
2.91613e+06,
3.04446e+06,
3.30328e+06,
3.7799e+06,
4.61031e+06,
5.73177e+06,
6.72973e+06,
7.29286e+06,
7.4663e+06,
7.25624e+06,
6.72424e+06,
6.03717e+06,
5.43488e+06,
5.03641e+06,
4.84746e+06,
4.83617e+06,
4.94715e+06,
5.11254e+06,
5.2356e+06,
5.25732e+06,
5.19887e+06,
5.12471e+06,
5.06584e+06,
5.01159e+06,
4.93581e+06,
4.84673e+06,
4.74181e+06,
4.61777e+06,
4.50058e+06,
4.38892e+06,
4.28194e+06,
4.19583e+06,
4.13443e+06,
4.12565e+06,
4.17774e+06,
4.2744e+06,
4.43038e+06,
4.63731e+06,
4.84136e+06,
5.00811e+06,
5.09529e+06,
5.0993e+06,
5.01055e+06,
4.85414e+06,
4.65377e+06,
4.44053e+06,
4.24178e+06,
4.07521e+06,
3.9494e+06,
3.85794e+06,
3.80477e+06,
3.79016e+06,
3.79421e+06,
3.81907e+06,
3.86585e+06,
3.91461e+06,
3.97533e+06,
4.02958e+06,
4.06535e+06,
4.08945e+06,
4.10474e+06,
4.10747e+06,
4.10726e+06,
4.10369e+06,
4.09685e+06,
4.09372e+06,
4.09281e+06,
4.0888e+06,
4.08362e+06,
4.09069e+06,
4.09612e+06,
4.09773e+06,
4.10268e+06,
4.09487e+06,
4.08415e+06,
4.07643e+06,
4.05537e+06,
4.0364e+06,
4.01032e+06,
3.98371e+06,
3.95842e+06,
3.93959e+06,
3.91864e+06,
3.89273e+06,
3.87264e+06,
3.85216e+06,
3.82761e+06,
3.79382e+06,
3.76494e+06,
3.74246e+06,
3.71291e+06,
3.67917e+06,
3.64858e+06,
3.6095e+06,
3.56852e+06,
3.52649e+06,
3.49107e+06,
3.44802e+06,
3.40085e+06,
3.3657e+06,
3.3319e+06,
3.3005e+06,
3.2689e+06,
3.24014e+06,
3.21561e+06,
3.19204e+06,
3.17151e+06,
3.15225e+06,
3.13432e+06,
3.12328e+06,
3.11118e+06,
3.10087e+06,
3.08702e+06,
3.07396e+06,
3.06444e+06,
3.05018e+06,
3.02892e+06,
3.0213e+06,
3.00654e+06,
2.99063e+06,
2.97704e+06,
2.96143e+06,
2.9436e+06,
2.9249e+06,
2.91062e+06,
2.89326e+06,
2.87778e+06,
2.86529e+06,
2.85179e+06,
2.84168e+06,
2.83076e+06,
2.82526e+06,
2.81604e+06,
2.80047e+06,
2.78799e+06,
2.77729e+06,
2.76585e+06,
2.75347e+06,
2.74293e+06,
2.73162e+06,
2.71981e+06,
2.70956e+06,
2.69333e+06,
2.67437e+06,
2.66044e+06,
2.64458e+06,
2.62907e+06,
2.6068e+06,
2.59226e+06,
2.58098e+06,
2.56683e+06,
2.54604e+06,
2.5237e+06,
2.50538e+06,
2.48705e+06,
2.46864e+06,
2.44908e+06,
2.4283e+06,
2.40615e+06,
2.38351e+06,
2.36448e+06,
2.34602e+06,
2.32282e+06,
2.30229e+06,
2.27698e+06,
2.25385e+06,
2.2392e+06,
2.22096e+06,
2.20428e+06,
2.18545e+06,
2.16231e+06,
2.14853e+06,
2.13119e+06,
2.11416e+06,
2.10356e+06,
2.09332e+06,
2.08611e+06,
2.07851e+06,
2.06647e+06,
2.05154e+06,
2.04366e+06,
2.03615e+06,
2.02384e+06,
2.01307e+06,
2.00247e+06,
1.99561e+06,
1.98619e+06,
1.97193e+06,
1.9644e+06,
1.9523e+06,
1.94392e+06,
1.93092e+06,
1.91736e+06,
1.90705e+06,
1.89941e+06,
1.88626e+06,
1.87178e+06,
1.86583e+06,
1.85243e+06,
1.83755e+06,
1.82452e+06,
1.81396e+06,
1.80218e+06,
1.79246e+06,
1.78265e+06,
1.76685e+06,
1.75165e+06,
1.73998e+06,
1.72884e+06,
1.7167e+06,
1.70386e+06,
1.68633e+06,
1.67466e+06,
1.66391e+06,
1.65036e+06,
1.63843e+06,
1.62634e+06,
1.61693e+06,
1.60903e+06,
1.59841e+06,
1.58916e+06,
1.57427e+06,
1.55781e+06,
1.55079e+06,
1.54566e+06,
1.53708e+06,
1.53004e+06,
1.51859e+06,
1.50848e+06,
1.49374e+06,
1.48099e+06,
1.47652e+06,
1.46751e+06,
1.45269e+06,
1.44294e+06,
1.43206e+06,
1.42162e+06,
1.40852e+06,
1.40134e+06,
1.3968e+06,
1.38471e+06,
1.37428e+06,
1.36533e+06,
1.35492e+06,
1.34533e+06,
1.33876e+06,
1.33443e+06,
1.32407e+06,
1.30887e+06,
1.29684e+06,
1.28769e+06,
1.27992e+06,
1.27381e+06,
1.26372e+06,
1.25256e+06,
1.24458e+06,
1.2321e+06,
1.21997e+06,
1.21051e+06,
1.20509e+06,
1.2002e+06,
1.19034e+06,
1.1823e+06,
1.17065e+06,
1.16008e+06,
1.15373e+06,
1.14546e+06,
1.13535e+06,
1.13148e+06,
1.12578e+06,
1.11642e+06,
1.10824e+06,
1.0975e+06,
1.08797e+06,
1.08437e+06,
1.07753e+06,
1.07447e+06,
1.06656e+06,
1.05875e+06,
1.05356e+06,
1.04471e+06,
1.04093e+06,
1.03649e+06,
1.02612e+06,
1.01575e+06,
1.01006e+06,
1.00512e+06,
1.00111e+06,
994610,
986978,
976963,
970024,
967038,
961143,
953893,
943827,
936085,
933410,
928139,
919687,
915463,
907459,
898058,
898113,
891567,
882597,
878544,
871051,
863545,
855758,
851816,
846025,
839150,
835032,
829284,
829056,
820480,
813421,
811567,
804925,
797538,
793147,
790161,
787766,
777494,
771258,
765587,
762925,
761040,
754638,
747805,
741757,
736750,
735431,
732014,
724627,
719629,
714188,
707466,
704176,
702553,
699516,
693288,
688376,
685499,
684697,
683579,
676302,
669152,
666414,
661722,
659695,
656976,
652277,
648526,
647550,
644744,
638731,
633846,
629824,
626012,
622276,
619216,
613360,
608227,
608779,
607479,
601144,
596472,
593379,
589409,
588003,
583726,
579415,
577372,
575255,
570245,
565659,
559766,
556301,
556528,
553793,
550746,
547741,
543340,
538820,
533623,
532855,
531735,
528240,
527078,
524227,
520584,
518035,
513198,
513315,
512254,
509121,
506797,
503017,
500373,
498156,
496856,
497420,
495796,
497495,
504335,
516425,
545244,
593747,
651153,
692845,
704640,
699046,
691700,
689342,
689385,
697604,
725987,
778335,
842279,
911198,
988836,
1.07292e+06,
1.14274e+06,
1.1779e+06,
1.17324e+06,
1.13646e+06,
1.08345e+06,
1.02812e+06,
985281,
961467,
957103,
965234,
981742,
1.00568e+06,
1.02965e+06,
1.058e+06,
1.0788e+06,
1.09347e+06,
1.09439e+06,
1.08607e+06,
1.06316e+06,
1.02488e+06,
983640,
941184,
898264,
858796,
822538,
789916,
760595,
741177,
729278,
726573,
730663,
733596,
738943,
748385,
755943,
762136,
766942,
769835,
776119,
780062,
778641,
777804,
779242,
781466,
788896,
796816,
805560,
817071,
825998,
838509,
850150,
865035,
876645,
889758,
895554,
902873,
913389,
924682,
932971,
938279,
943782,
947364,
950241,
953166,
954037,
955758,
953851,
949807,
943215,
933992,
923933,
917443,
905151,
894080,
883332,
876195,
866250,
850242,
837158,
828910,
819835,
811502,
803212,
798241,
791178,
783753,
776698,
770084,
767444,
765135,
765278,
763007,
758631,
760390,
760779,
758889,
758159,
757205,
757774,
759449,
759299,
761047,
763087,
761394,
759049,
757351,
755166,
752417,
753443,
754406,
749931,
748652,
746122,
740029,
738380,
738942,
737247,
733764,
728372,
724408,
722392,
717835,
716132,
714986,
711318,
707005,
702895,
700284,
699302,
694898,
689469,
687372,
684720,
682463,
678661,
678422,
677184,
674371,
673360,
672554,
670062,
665703,
662024,
661139,
659975,
657559,
655556,
652207,
651062,
649483,
645362,
642024,
637687,
635197,
632995,
632748,
630597,
627077,
623821,
619292,
616004,
613001,
610534,
610440,
607069,
602749,
601833,
598339,
597750,
594570,
591792,
590565,
587252,
585546,
582152,
579613,
576583,
574300,
570169,
566633,
565708,
564398,
563107,
560423,
558478,
556093,
553564,
550450,
548713,
544268,
543456,
544410,
540341,
535356,
533430,
532010,
528720,
526961,
527011,
524905,
523988,
520960,
518515,
516806,
517356,
512623,
508509,
508559,
509415,
509404,
507462,
502759,
498733,
497428,
493095,
492923,
492215,
488034,
485359,
485072,
484427,
482431,
478718,
476222,
474510,
471119,
470753,
467302,
465177,
462735,
458327,
456645,
458000,
455380,
452242,
450499,
448716,
445944,
442042,
436783,
434723,
435821,
436613,
436076,
429446,
426128,
425674,
422601,
419472,
419603,
420208,
418521,
414140,
410057,
407207,
408318,
406643,
406293,
405317,
404169,
400455,
398881,
396838,
397093,
397048,
396398,
393772,
389771,
389414,
388421,
384967,
383160,
382979,
382270,
379680,
374452,
371227,
373378,
373171,
369953,
370660,
371287,
368087,
367677,
365610,
363351,
362523,
360315,
360509,
359337,
355085,
352758,
351661,
350433,
347899,
348710,
346560,
343229,
341400,
340112,
336366,
335637,
336145,
334835,
331790,
328052,
328115,
327498,
327703,
326298,
325099,
322827,
319256,
319852,
320735,
318187,
314964,
315221,
314004,
313369,
313237,
310301,
308451,
309413,
309141,
306585,
303537,
303063,
303151,
300198,
298757,
298718,
296312,
294036,
293805,
290697,
289842,
291279,
292006,
288460,
287312,
286209,
286955,
288932,
288627,
283829,
281471,
278257,
278526,
279247,
277916,
278312,
276224,
274771,
274294,
271194,
272565,
271180,
268789,
266712,
265387,
264321,
265939,
265443,
264080,
262388,
258268,
256937,
257906,
258411,
257443,
255194,
254657,
253675,
253328,
253652,
249896,
249237,
249438,
247705,
245580,
244988,
243644,
241108,
240501,
241275,
242373,
241823,
241369,
241839,
241291,
239577,
235496,
234462,
235969,
235133,
232987,
231666,
230356,
227288,
226127,
227732,
228884,
226551,
224968,
226576,
227093,
222970,
220467,
220798,
221530,
220607,
220142,
220211,
221813,
220301,
218275,
216160,
214919,
215939,
215632,
213211,
210625,
210370,
209869,
210618,
210013,
209102,
208464,
205720,
174132,
#ENDOFDATA   : End Of Data and File